PART_ID,Trial,Stimuli,Version,Training,FIXTIME,TIME,Correct,SOA,Reversal,Reversal_count,Latency,stim_name,Rating
44K28,0,SQUARES,First_showed,1,20,15,1,3,0,0,1.2335717678070068,left,Mała
44K28,1,SQUARES,First_showed,1,20,15,0,3,0,-,0.6836199760437012,left,Mała
44K28,2,SQUARES,First_showed,1,20,15,1,4,0,-,0.6169521808624268,left,Mała
44K28,3,SQUARES,First_showed,1,20,15,0,4,0,-,1.933380126953125,left,Żadna
44K28,4,SQUARES,First_showed,1,20,15,1,5,0,-,2.8502449989318848,right,Duża
44K28,5,SQUARES,First_showed,1,20,15,1,5,0,-,0.48340797424316406,left,Duża
44K28,6,SQUARES,First_showed,1,20,15,1,5,1,1,0.3002450466156006,right,Całkowita
44K28,7,SQUARES,First_showed,1,20,15,0,4,1,2,0.6002349853515625,left,Całkowita
44K28,8,SQUARES,First_showed,1,20,15,0,5,0,-,0.7333950996398926,left,Żadna
44K28,9,SQUARES,First_showed,1,20,15,1,6,0,-,0.6335010528564453,left,Całkowita
44K28,10,SQUARES,First_showed,1,20,15,1,6,0,-,0.6168949604034424,right,Całkowita
44K28,11,SQUARES,First_showed,1,20,15,1,6,1,3,1.6335749626159668,left,Całkowita
44K28,12,SQUARES,First_showed,1,20,15,1,5,0,-,0.48361802101135254,right,Całkowita
44K28,13,SQUARES,First_showed,1,20,15,1,5,0,-,0.4168820381164551,right,Całkowita
44K28,14,SQUARES,First_showed,1,20,15,1,5,0,-,0.3669419288635254,right,Duża
44K28,15,SQUARES,First_showed,1,20,15,1,4,0,-,0.9834179878234863,left,Całkowita
44K28,16,SQUARES,First_showed,1,20,15,1,4,0,-,1.20021390914917,left,Całkowita
44K28,17,SQUARES,First_showed,1,20,15,1,4,0,-,1.150399923324585,left,Całkowita
44K28,18,SQUARES,First_showed,1,20,15,1,3,0,-,0.4168829917907715,right,Całkowita
44K28,19,SQUARES,First_showed,1,20,15,1,3,0,-,0.9168739318847656,left,Całkowita
44K28,20,SQUARES,First_showed,1,20,15,1,3,0,-,0.40007710456848145,right,Całkowita
44K28,21,SQUARES,First_showed,1,20,15,1,2,0,-,0.8502349853515625,left,Całkowita
44K28,22,SQUARES,First_showed,1,20,15,1,2,0,-,0.4168999195098877,right,Całkowita
44K28,23,SQUARES,First_showed,1,20,15,0,2,1,4,0.6336169242858887,right,Całkowita
44K28,24,SQUARES,First_showed,1,20,15,1,3,0,-,0.5168759822845459,left,Całkowita
44K28,25,SQUARES,First_showed,1,20,15,1,3,0,-,0.6169700622558594,right,Całkowita
44K28,26,SQUARES,First_showed,1,20,15,1,3,1,5,0.26688408851623535,right,Całkowita
44K28,27,SQUARES,First_showed,1,20,15,1,2,0,-,0.9335689544677734,right,Całkowita
44K28,28,SQUARES,First_showed,1,20,15,1,2,0,-,0.6335568428039551,left,Całkowita
44K28,29,SQUARES,First_showed,1,20,15,1,2,0,-,0.4002711772918701,left,Całkowita
44K28,30,SQUARES,First_showed,1,20,15,1,1,0,-,0.38355088233947754,right,Całkowita
44K28,31,SQUARES,First_showed,1,20,15,0,1,1,6,0.9669299125671387,left,Mała
44K28,32,SQUARES,First_showed,1,20,15,1,2,0,-,1.5000700950622559,right,Duża
44K28,33,SQUARES,First_showed,1,20,15,0,2,0,-,1.350071907043457,left,Duża
44K28,34,SQUARES,First_showed,1,20,15,1,3,0,-,1.050083875656128,right,Duża
44K28,35,SQUARES,First_showed,1,20,15,1,3,0,-,0.4168388843536377,left,Duża
44K28,36,SQUARES,First_showed,1,20,15,1,3,1,7,1.5836758613586426,right,Duża
44K28,37,SQUARES,First_showed,1,20,15,1,2,0,-,0.550260066986084,right,Całkowita
44K28,38,SQUARES,First_showed,1,20,15,1,2,0,-,1.2002129554748535,left,Duża
44K28,39,SQUARES,First_showed,1,20,15,1,2,0,-,0.5501821041107178,left,Duża
44K28,40,SQUARES,First_showed,1,20,15,1,1,0,-,0.5167570114135742,left,Całkowita
44K28,41,SQUARES,First_showed,1,20,15,1,1,0,-,0.983565092086792,left,Duża
44K28,42,SQUARES,First_showed,1,20,15,0,1,1,8,0.8500881195068359,right,Duża
44K28,42,SQUARES,First_showed,0,480,15,False,4,-,-,2.266780138015747,left,Mała
44K28,43,SQUARES,First_showed,0,480,15,True,4,-,-,0.466965913772583,left,Duża
44K28,44,SQUARES,First_showed,0,480,15,False,4,-,-,1.216900110244751,left,Duża
44K28,45,SQUARES,First_showed,0,480,15,True,4,-,-,0.8502609729766846,right,Duża
44K28,46,SQUARES,First_showed,0,480,15,True,4,-,-,0.4336719512939453,right,Całkowita
44K28,47,SQUARES,First_showed,0,480,15,True,4,-,-,0.3000650405883789,left,Całkowita
44K28,48,SQUARES,First_showed,0,480,15,True,4,-,-,1.000324010848999,right,Duża
44K28,49,SQUARES,First_showed,0,480,15,True,4,-,-,0.45026707649230957,left,Całkowita
44K28,50,SQUARES,First_showed,0,480,15,True,4,-,-,0.36679506301879883,right,Całkowita
44K28,51,SQUARES,First_showed,0,480,15,True,4,-,-,0.28339695930480957,left,Całkowita
44K28,52,SQUARES,First_showed,0,480,15,True,4,-,-,0.38358283042907715,left,Duża
44K28,53,SQUARES,First_showed,0,480,15,True,4,-,-,0.7334179878234863,right,Duża
44K28,54,SQUARES,First_showed,0,480,15,True,4,-,-,0.3169081211090088,right,Duża
44K28,55,SQUARES,First_showed,0,480,15,True,4,-,-,0.283405065536499,right,Całkowita
44K28,56,SQUARES,First_showed,0,480,15,True,4,-,-,0.28368496894836426,right,Duża
44K28,57,SQUARES,First_showed,0,480,15,True,4,-,-,0.18339896202087402,left,Całkowita
44K28,58,SQUARES,First_showed,0,480,15,True,4,-,-,0.25008201599121094,right,Całkowita
44K28,59,SQUARES,First_showed,0,480,15,True,4,-,-,0.2669868469238281,left,Całkowita
44K28,60,SQUARES,First_showed,0,480,15,True,4,-,-,0.26700901985168457,left,Całkowita
44K28,61,SQUARES,First_showed,0,480,15,True,4,-,-,0.28360605239868164,right,Całkowita
44K28,62,SQUARES,First_showed,0,480,15,True,4,-,-,0.21687006950378418,right,Całkowita
44K28,63,SQUARES,First_showed,0,480,15,True,4,-,-,0.8001680374145508,right,Duża
44K28,64,SQUARES,First_showed,0,480,15,True,4,-,-,0.2835860252380371,left,Całkowita
44K28,65,SQUARES,First_showed,0,480,15,True,4,-,-,0.9168848991394043,right,Duża
44K28,66,SQUARES,First_showed,0,480,15,True,4,-,-,1.6169350147247314,right,Mała
44K28,67,SQUARES,First_showed,0,480,15,False,4,-,-,1.2335410118103027,right,Duża
44K28,68,SQUARES,First_showed,0,480,15,True,4,-,-,1.6166999340057373,left,Duża
44K28,69,SQUARES,First_showed,0,480,15,True,4,-,-,2.366731882095337,right,Mała
44K28,70,SQUARES,First_showed,0,480,15,True,4,-,-,0.3333442211151123,left,Duża
44K28,71,SQUARES,First_showed,0,480,15,True,4,-,-,0.7502498626708984,left,Duża
44K28,72,SQUARES,First_showed,0,480,15,True,4,-,-,0.3501241207122803,left,Duża
44K28,73,SQUARES,First_showed,0,480,15,True,4,-,-,0.31702184677124023,left,Duża
44K28,74,SQUARES,First_showed,0,480,15,True,4,-,-,0.983565092086792,right,Duża
44K28,75,SQUARES,First_showed,0,480,15,True,4,-,-,0.48358702659606934,right,Mała
44K28,76,SQUARES,First_showed,0,480,15,True,4,-,-,0.26688098907470703,right,Duża
44K28,77,SQUARES,First_showed,0,480,15,True,4,-,-,0.6335270404815674,left,Duża
44K28,78,SQUARES,First_showed,0,480,15,True,4,-,-,0.6833908557891846,right,Mała
44K28,79,SQUARES,First_showed,0,480,15,True,4,-,-,0.33353185653686523,left,Duża
44K28,80,SQUARES,First_showed,0,480,15,True,4,-,-,1.1169970035552979,right,Duża
44K28,81,SQUARES,First_showed,0,480,15,True,4,-,-,0.2503199577331543,right,Duża
44K28,82,SQUARES,First_showed,0,480,15,True,4,-,-,0.3002159595489502,left,Duża
44K28,83,SQUARES,First_showed,0,480,15,True,4,-,-,1.2169969081878662,right,Mała
44K28,84,SQUARES,First_showed,0,480,15,True,4,-,-,0.26688408851623535,right,Duża
44K28,85,SQUARES,First_showed,0,480,15,True,4,-,-,1.300271987915039,left,Mała
44K28,86,SQUARES,First_showed,0,480,15,False,4,-,-,1.1501681804656982,right,Żadna
44K28,87,SQUARES,First_showed,0,480,15,True,4,-,-,0.4004061222076416,left,Duża
44K28,88,SQUARES,First_showed,0,480,15,True,4,-,-,0.3169820308685303,left,Duża
44K28,89,SQUARES,First_showed,0,480,15,True,4,-,-,0.36689281463623047,left,Duża
44K28,90,SQUARES,First_showed,0,480,15,True,4,-,-,0.21691298484802246,right,Całkowita
44K28,91,SQUARES,First_showed,0,480,15,True,4,-,-,1.1002299785614014,right,Duża
44K28,92,SQUARES,First_showed,0,480,15,True,4,-,-,0.5667309761047363,left,Duża
44K28,93,SQUARES,First_showed,0,480,15,True,4,-,-,0.36698198318481445,left,Duża
44K28,94,SQUARES,First_showed,0,480,15,True,4,-,-,0.3002471923828125,left,Duża
44K28,95,SQUARES,First_showed,0,480,15,True,4,-,-,0.2668628692626953,left,Duża
44K28,96,SQUARES,First_showed,0,480,15,True,4,-,-,0.3001840114593506,right,Duża
44K28,97,SQUARES,First_showed,0,480,15,True,4,-,-,0.2335820198059082,left,Duża
44K28,98,SQUARES,First_showed,0,480,15,True,4,-,-,0.2167198657989502,left,Duża
44K28,99,SQUARES,First_showed,0,480,15,True,4,-,-,1.4668490886688232,right,Mała
44K28,100,SQUARES,First_showed,0,480,15,True,4,-,-,0.38358211517333984,right,Mała
44K28,101,SQUARES,First_showed,0,480,15,True,4,-,-,0.2167348861694336,left,Duża
44K28,102,SQUARES,First_showed,0,480,15,True,4,-,-,0.23354101181030273,right,Duża
44K28,103,SQUARES,First_showed,0,480,15,False,4,-,-,1.066890001296997,left,Mała
44K28,104,SQUARES,First_showed,0,480,15,True,4,-,-,1.0500710010528564,left,Duża
44K28,105,SQUARES,First_showed,0,480,15,True,4,-,-,0.3167428970336914,right,Duża
44K28,106,SQUARES,First_showed,0,480,15,True,4,-,-,0.2501800060272217,left,Duża
44K28,107,SQUARES,First_showed,0,480,15,True,4,-,-,2.316977024078369,left,Mała
44K28,108,SQUARES,First_showed,0,480,15,True,4,-,-,0.31694507598876953,right,Mała
44K28,109,SQUARES,First_showed,0,480,15,True,4,-,-,1.2335760593414307,right,Duża
44K28,110,SQUARES,First_showed,0,480,15,True,4,-,-,1.6502931118011475,right,Duża
44K28,111,SQUARES,First_showed,0,480,15,True,4,-,-,1.0668940544128418,left,Duża
44K28,112,SQUARES,First_showed,0,480,15,True,4,-,-,0.23339104652404785,right,Duża
44K28,113,SQUARES,First_showed,0,480,15,True,4,-,-,0.2502758502960205,right,Duża
44K28,114,SQUARES,First_showed,0,480,15,True,4,-,-,0.2502281665802002,left,Duża
44K28,115,SQUARES,First_showed,0,480,15,True,4,-,-,0.23341703414916992,left,Duża
44K28,116,SQUARES,First_showed,0,480,15,True,4,-,-,0.18362903594970703,left,Duża
44K28,117,SQUARES,First_showed,0,480,15,True,4,-,-,0.26688504219055176,right,Duża
44K28,118,SQUARES,First_showed,0,480,15,True,4,-,-,0.1835470199584961,left,Duża
44K28,119,SQUARES,First_showed,0,480,15,True,4,-,-,0.20022106170654297,left,Duża
44K28,120,SQUARES,First_showed,0,480,15,True,4,-,-,0.233551025390625,left,Duża
44K28,121,SQUARES,First_showed,0,480,15,True,4,-,-,0.16674017906188965,right,Duża
44K28,122,SQUARES,First_showed,0,480,15,True,4,-,-,0.533627986907959,left,Mała
44K28,123,SQUARES,First_showed,0,480,15,True,4,-,-,0.716871976852417,right,Mała
44K28,124,SQUARES,First_showed,0,480,15,True,4,-,-,0.46687793731689453,right,Duża
44K28,125,SQUARES,First_showed,0,480,15,False,4,-,-,1.3168818950653076,right,Mała
44K28,126,SQUARES,First_showed,0,480,15,False,4,-,-,0.7669129371643066,right,Mała
44K28,127,SQUARES,First_showed,0,480,15,True,4,-,-,0.21695709228515625,left,Duża
44K28,128,SQUARES,First_showed,0,480,15,True,4,-,-,1.8668570518493652,left,Duża
44K28,129,SQUARES,First_showed,0,480,15,True,4,-,-,0.15025997161865234,right,Duża
44K28,130,SQUARES,First_showed,0,480,15,True,4,-,-,0.1500699520111084,right,Całkowita
44K28,131,SQUARES,First_showed,0,480,15,True,4,-,-,0.06672096252441406,right,Całkowita
44K28,0,CIRCLES,First_hidden,1,20,15,0,3,0,0,1.8667070865631104,left,Żadna
44K28,1,CIRCLES,First_hidden,1,20,15,1,4,0,-,2.1835830211639404,left,Duża
44K28,2,CIRCLES,First_hidden,1,20,15,1,4,0,-,0.533552885055542,right,Duża
44K28,3,CIRCLES,First_hidden,1,20,15,1,4,1,1,1.8667361736297607,right,Całkowita
44K28,4,CIRCLES,First_hidden,1,20,15,1,3,0,-,0.5669169425964355,left,Całkowita
44K28,5,CIRCLES,First_hidden,1,20,15,1,3,0,-,0.516942024230957,left,Całkowita
44K28,6,CIRCLES,First_hidden,1,20,15,1,3,0,-,0.5168640613555908,left,Całkowita
44K28,7,CIRCLES,First_hidden,1,20,15,1,2,0,-,0.7835500240325928,right,Całkowita
44K28,8,CIRCLES,First_hidden,1,20,15,1,2,0,-,0.6170089244842529,right,Całkowita
44K28,9,CIRCLES,First_hidden,1,20,15,1,2,0,-,0.6002960205078125,left,Całkowita
44K28,10,CIRCLES,First_hidden,1,20,15,1,1,0,-,1.216900110244751,right,Mała
44K28,11,CIRCLES,First_hidden,1,20,15,0,1,1,2,1.6000659465789795,right,Mała
44K28,12,CIRCLES,First_hidden,1,20,15,1,2,0,-,0.5836391448974609,left,Całkowita
44K28,13,CIRCLES,First_hidden,1,20,15,1,2,0,-,0.5502521991729736,right,Całkowita
44K28,14,CIRCLES,First_hidden,1,20,15,1,2,1,3,0.5835819244384766,left,Całkowita
44K28,15,CIRCLES,First_hidden,1,20,15,1,1,0,-,0.6167459487915039,right,Całkowita
44K28,16,CIRCLES,First_hidden,1,20,15,1,1,0,-,0.5836160182952881,right,Całkowita
44K28,17,CIRCLES,First_hidden,1,20,15,1,1,0,-,0.5502171516418457,right,Całkowita
44K28,18,CIRCLES,First_hidden,1,20,15,0,0,1,4,0.5335149765014648,left,Całkowita
44K28,19,CIRCLES,First_hidden,1,20,15,1,1,0,-,0.6002340316772461,right,Mała
44K28,20,CIRCLES,First_hidden,1,20,15,1,1,0,-,0.5334219932556152,right,Całkowita
44K28,21,CIRCLES,First_hidden,1,20,15,1,1,1,5,0.6502859592437744,left,Całkowita
44K28,22,CIRCLES,First_hidden,1,20,15,0,0,1,6,1.1336188316345215,left,Duża
44K28,23,CIRCLES,First_hidden,1,20,15,1,1,0,-,0.7003388404846191,right,Żadna
44K28,24,CIRCLES,First_hidden,1,20,15,0,1,0,-,0.750236988067627,right,Duża
44K28,25,CIRCLES,First_hidden,1,20,15,1,2,0,-,0.5669598579406738,left,Całkowita
44K28,26,CIRCLES,First_hidden,1,20,15,1,2,0,-,0.6335690021514893,left,Całkowita
44K28,27,CIRCLES,First_hidden,1,20,15,0,2,0,-,0.5668740272521973,left,Żadna
44K28,28,CIRCLES,First_hidden,1,20,15,1,3,0,-,0.9667150974273682,right,Duża
44K28,29,CIRCLES,First_hidden,1,20,15,1,3,0,-,0.5835449695587158,left,Całkowita
44K28,30,CIRCLES,First_hidden,1,20,15,1,3,1,7,0.6668829917907715,right,Całkowita
44K28,31,CIRCLES,First_hidden,1,20,15,1,2,0,-,0.5835869312286377,left,Całkowita
44K28,32,CIRCLES,First_hidden,1,20,15,1,2,0,-,0.5336461067199707,left,Całkowita
44K28,33,CIRCLES,First_hidden,1,20,15,1,2,0,-,0.5669419765472412,right,Całkowita
44K28,34,CIRCLES,First_hidden,1,20,15,1,1,0,-,0.5335390567779541,left,Całkowita
44K28,35,CIRCLES,First_hidden,1,20,15,1,1,0,-,0.5503199100494385,left,Całkowita
44K28,36,CIRCLES,First_hidden,1,20,15,1,1,0,-,1.3167529106140137,right,Duża
44K28,37,CIRCLES,First_hidden,1,20,15,0,0,1,8,0.5502340793609619,right,Całkowita
44K28,37,CIRCLES,First_hidden,0,480,15,True,1,-,-,1.9669198989868164,left,Mała
44K28,38,CIRCLES,First_hidden,0,480,15,True,1,-,-,0.6336061954498291,left,Duża
44K28,39,CIRCLES,First_hidden,0,480,15,True,1,-,-,0.6169161796569824,right,Duża
44K28,40,CIRCLES,First_hidden,0,480,15,True,1,-,-,1.0669000148773193,right,Mała
44K28,41,CIRCLES,First_hidden,0,480,15,True,1,-,-,0.6002750396728516,right,Duża
44K28,42,CIRCLES,First_hidden,0,480,15,True,1,-,-,0.8001670837402344,right,Mała
44K28,43,CIRCLES,First_hidden,0,480,15,True,1,-,-,0.5336611270904541,left,Duża
44K28,44,CIRCLES,First_hidden,0,480,15,True,1,-,-,0.5170187950134277,left,Całkowita
44K28,45,CIRCLES,First_hidden,0,480,15,True,1,-,-,0.7833759784698486,right,Mała
44K28,46,CIRCLES,First_hidden,0,480,15,True,1,-,-,0.5169558525085449,left,Duża
44K28,47,CIRCLES,First_hidden,0,480,15,True,1,-,-,0.8669228553771973,right,Duża
44K28,48,CIRCLES,First_hidden,0,480,15,True,1,-,-,0.5168871879577637,left,Całkowita
44K28,49,CIRCLES,First_hidden,0,480,15,True,1,-,-,0.6834151744842529,right,Duża
44K28,50,CIRCLES,First_hidden,0,480,15,True,1,-,-,0.5169010162353516,left,Całkowita
44K28,51,CIRCLES,First_hidden,0,480,15,True,1,-,-,0.7333741188049316,right,Duża
44K28,52,CIRCLES,First_hidden,0,480,15,True,1,-,-,0.6002590656280518,right,Duża
44K28,53,CIRCLES,First_hidden,0,480,15,True,1,-,-,0.43355703353881836,left,Całkowita
44K28,54,CIRCLES,First_hidden,0,480,15,True,1,-,-,0.50028395652771,right,Duża
44K28,55,CIRCLES,First_hidden,0,480,15,True,1,-,-,0.43337106704711914,left,Całkowita
44K28,56,CIRCLES,First_hidden,0,480,15,True,1,-,-,0.7334179878234863,right,Duża
44K28,57,CIRCLES,First_hidden,0,480,15,True,1,-,-,0.41668200492858887,left,Całkowita
44K28,58,CIRCLES,First_hidden,0,480,15,True,1,-,-,0.40016889572143555,left,Duża
44K28,59,CIRCLES,First_hidden,0,480,15,True,1,-,-,0.6836650371551514,right,Duża
44K28,60,CIRCLES,First_hidden,0,480,15,True,1,-,-,0.4333820343017578,left,Całkowita
44K28,61,CIRCLES,First_hidden,0,480,15,True,1,-,-,0.6502931118011475,right,Duża
44K28,62,CIRCLES,First_hidden,0,480,15,True,1,-,-,0.6335620880126953,right,Duża
44K28,63,CIRCLES,First_hidden,0,480,15,True,1,-,-,0.6170001029968262,left,Duża
44K28,64,CIRCLES,First_hidden,0,480,15,True,1,-,-,0.66690993309021,left,Duża
44K28,65,CIRCLES,First_hidden,0,480,15,True,1,-,-,0.4669229984283447,left,Duża
44K28,66,CIRCLES,First_hidden,0,480,15,True,1,-,-,0.46698713302612305,left,Duża
44K28,67,CIRCLES,First_hidden,0,480,15,True,1,-,-,0.41692495346069336,left,Duża
44K28,68,CIRCLES,First_hidden,0,480,15,False,1,-,-,0.6502091884613037,right,Duża
44K28,69,CIRCLES,First_hidden,0,480,15,True,1,-,-,0.4335660934448242,right,Duża
44K28,70,CIRCLES,First_hidden,0,480,15,True,1,-,-,0.43362903594970703,left,Duża
44K28,71,CIRCLES,First_hidden,0,480,15,True,1,-,-,1.4837229251861572,right,Mała
44K28,72,CIRCLES,First_hidden,0,480,15,True,1,-,-,0.4003000259399414,left,Całkowita
44K28,73,CIRCLES,First_hidden,0,480,15,True,1,-,-,0.3500809669494629,right,Całkowita
44K28,74,CIRCLES,First_hidden,0,480,15,True,1,-,-,0.5002779960632324,right,Całkowita
44K28,75,CIRCLES,First_hidden,0,480,15,True,1,-,-,0.900109052658081,right,Duża
44K28,76,CIRCLES,First_hidden,0,480,15,False,1,-,-,0.38357996940612793,right,Duża
44K28,77,CIRCLES,First_hidden,0,480,15,True,1,-,-,1.7669119834899902,right,Mała
44K28,78,CIRCLES,First_hidden,0,480,15,True,1,-,-,0.40009284019470215,left,Duża
44K28,79,CIRCLES,First_hidden,0,480,15,True,1,-,-,0.46688389778137207,left,Duża
44K28,80,CIRCLES,First_hidden,0,480,15,True,1,-,-,0.4503350257873535,left,Całkowita
44K28,81,CIRCLES,First_hidden,0,480,15,False,1,-,-,0.85030198097229,right,Mała
44K28,82,CIRCLES,First_hidden,0,480,15,True,1,-,-,0.43349695205688477,left,Duża
44K28,83,CIRCLES,First_hidden,0,480,15,True,1,-,-,1.0502939224243164,left,Mała
44K28,84,CIRCLES,First_hidden,0,480,15,True,1,-,-,0.40024399757385254,left,Duża
44K28,85,CIRCLES,First_hidden,0,480,15,False,1,-,-,0.5335538387298584,right,Duża
44K28,86,CIRCLES,First_hidden,0,480,15,True,1,-,-,0.36691999435424805,left,Duża
44K28,87,CIRCLES,First_hidden,0,480,15,True,1,-,-,0.4502999782562256,left,Duża
44K28,88,CIRCLES,First_hidden,0,480,15,True,1,-,-,0.4669010639190674,left,Duża
44K28,89,CIRCLES,First_hidden,0,480,15,False,1,-,-,1.1501028537750244,right,Duża
44K28,90,CIRCLES,First_hidden,0,480,15,False,1,-,-,0.7336118221282959,right,Duża
44K28,91,CIRCLES,First_hidden,0,480,15,True,1,-,-,0.4502899646759033,left,Duża
44K28,92,CIRCLES,First_hidden,0,480,15,False,1,-,-,0.7669460773468018,right,Duża
44K28,93,CIRCLES,First_hidden,0,480,15,True,1,-,-,0.4003920555114746,left,Duża
44K28,94,CIRCLES,First_hidden,0,480,15,False,1,-,-,1.4836020469665527,right,Mała
44K28,95,CIRCLES,First_hidden,0,480,15,True,1,-,-,0.7668719291687012,left,Duża
44K28,96,CIRCLES,First_hidden,0,480,15,True,1,-,-,0.6833319664001465,right,Mała
44K28,97,CIRCLES,First_hidden,0,480,15,True,1,-,-,0.40007615089416504,left,Duża
44K28,98,CIRCLES,First_hidden,0,480,15,True,1,-,-,0.300076961517334,left,Całkowita
44K28,99,CIRCLES,First_hidden,0,480,15,False,1,-,-,0.2836270332336426,right,Duża
44K28,100,CIRCLES,First_hidden,0,480,15,False,1,-,-,2.2335689067840576,right,Mała
44K28,101,CIRCLES,First_hidden,0,480,15,True,1,-,-,1.1669261455535889,right,Duża
44K28,102,CIRCLES,First_hidden,0,480,15,True,1,-,-,1.0502698421478271,right,Duża
44K28,103,CIRCLES,First_hidden,0,480,15,False,1,-,-,1.4502389430999756,right,Mała
44K28,104,CIRCLES,First_hidden,0,480,15,True,1,-,-,1.1502020359039307,left,Duża
44K28,105,CIRCLES,First_hidden,0,480,15,False,1,-,-,1.5000708103179932,left,Mała
44K28,106,CIRCLES,First_hidden,0,480,15,False,1,-,-,0.30031895637512207,left,Mała
44K28,107,CIRCLES,First_hidden,0,480,15,False,1,-,-,1.2169411182403564,left,Mała
44K28,108,CIRCLES,First_hidden,0,480,15,True,1,-,-,0.5167570114135742,left,Całkowita
44K28,109,CIRCLES,First_hidden,0,480,15,True,1,-,-,0.7836120128631592,left,Duża
44K28,110,CIRCLES,First_hidden,0,480,15,False,1,-,-,1.2002508640289307,right,Mała
44K28,111,CIRCLES,First_hidden,0,480,15,True,1,-,-,0.41690897941589355,left,Duża
44K28,112,CIRCLES,First_hidden,0,480,15,False,1,-,-,1.0335478782653809,right,Mała
44K28,113,CIRCLES,First_hidden,0,480,15,True,1,-,-,1.583528995513916,right,Mała
44K28,114,CIRCLES,First_hidden,0,480,15,True,1,-,-,0.43356990814208984,left,Całkowita
44K28,115,CIRCLES,First_hidden,0,480,15,True,1,-,-,0.6336021423339844,right,Mała
44K28,116,CIRCLES,First_hidden,0,480,15,False,1,-,-,0.4169199466705322,right,Duża
44K28,117,CIRCLES,First_hidden,0,480,15,False,1,-,-,0.4502408504486084,right,Duża
44K28,118,CIRCLES,First_hidden,0,480,15,True,1,-,-,0.4502229690551758,left,Duża
44K28,119,CIRCLES,First_hidden,0,480,15,False,1,-,-,1.8668789863586426,right,Duża
44K28,120,CIRCLES,First_hidden,0,480,15,True,1,-,-,0.38343286514282227,right,Duża
44K28,121,CIRCLES,First_hidden,0,480,15,True,1,-,-,0.3168919086456299,right,Duża
44K28,122,CIRCLES,First_hidden,0,480,15,True,1,-,-,0.6336009502410889,right,Mała
44K28,123,CIRCLES,First_hidden,0,480,15,True,1,-,-,0.7170090675354004,left,Mała
44K28,124,CIRCLES,First_hidden,0,480,15,True,1,-,-,0.4835388660430908,right,Mała
44K28,125,CIRCLES,First_hidden,0,480,15,True,1,-,-,0.30022406578063965,left,Duża
44K28,126,CIRCLES,First_hidden,0,480,15,True,1,-,-,0.2836301326751709,right,Duża
