PART_ID,Trial,Stimuli,Version,Training,FIXTIME,TIME,Correct,SOA,Reversal,Reversal_count,Latency,stim_name,Rating
66M18,0,SQUARES,First_showed,1,20,15,1,3,0,0,1.9002408981323242,left,Żadna
66M18,1,SQUARES,First_showed,1,20,15,1,3,0,-,2.6835880279541016,left,Mała
66M18,2,SQUARES,First_showed,1,20,15,1,3,0,-,1.7502868175506592,left,Duża
66M18,3,SQUARES,First_showed,1,20,15,1,2,0,-,2.6168839931488037,right,Duża
66M18,4,SQUARES,First_showed,1,20,15,1,2,0,-,1.150264024734497,left,Duża
66M18,5,SQUARES,First_showed,1,20,15,1,2,0,-,1.0168671607971191,right,Duża
66M18,6,SQUARES,First_showed,1,20,15,0,1,1,1,1.2669081687927246,right,Mała
66M18,7,SQUARES,First_showed,1,20,15,0,2,0,-,1.3669631481170654,left,Duża
66M18,8,SQUARES,First_showed,1,20,15,1,3,0,-,1.9336049556732178,right,Mała
66M18,9,SQUARES,First_showed,1,20,15,1,3,0,-,1.016901969909668,left,Duża
66M18,10,SQUARES,First_showed,1,20,15,1,3,1,2,0.9333631992340088,right,Duża
66M18,11,SQUARES,First_showed,1,20,15,1,2,0,-,2.6500840187072754,left,Duża
66M18,12,SQUARES,First_showed,1,20,15,0,2,1,3,1.9668920040130615,right,Duża
66M18,13,SQUARES,First_showed,1,20,15,1,3,0,-,0.7835981845855713,right,Całkowita
66M18,14,SQUARES,First_showed,1,20,15,0,3,0,-,0.9000968933105469,right,Duża
66M18,15,SQUARES,First_showed,1,20,15,0,4,0,-,1.6836490631103516,left,Całkowita
66M18,16,SQUARES,First_showed,1,20,15,1,5,0,-,0.5500500202178955,left,Całkowita
66M18,17,SQUARES,First_showed,1,20,15,0,5,0,-,0.5500659942626953,right,Całkowita
66M18,18,SQUARES,First_showed,1,20,15,0,6,0,-,2.083629846572876,right,Mała
66M18,19,SQUARES,First_showed,1,20,15,0,7,0,-,1.7669668197631836,right,Duża
66M18,20,SQUARES,First_showed,1,20,15,1,8,0,-,1.1835920810699463,right,Duża
66M18,21,SQUARES,First_showed,1,20,15,1,8,0,-,0.9668831825256348,left,Duża
66M18,22,SQUARES,First_showed,1,20,15,1,8,1,4,1.2002267837524414,left,Duża
66M18,23,SQUARES,First_showed,1,20,15,1,7,0,-,0.8836519718170166,left,Całkowita
66M18,24,SQUARES,First_showed,1,20,15,1,7,0,-,0.6169631481170654,right,Całkowita
66M18,25,SQUARES,First_showed,1,20,15,1,7,0,-,0.6002011299133301,left,Całkowita
66M18,26,SQUARES,First_showed,1,20,15,1,6,0,-,0.23361921310424805,left,Całkowita
66M18,27,SQUARES,First_showed,1,20,15,1,6,0,-,0.783560037612915,right,Całkowita
66M18,28,SQUARES,First_showed,1,20,15,1,6,0,-,1.5167558193206787,right,Duża
66M18,29,SQUARES,First_showed,1,20,15,1,5,0,-,1.1836249828338623,right,Całkowita
66M18,30,SQUARES,First_showed,1,20,15,1,5,0,-,0.7502520084381104,left,Całkowita
66M18,31,SQUARES,First_showed,1,20,15,1,5,0,-,1.5335571765899658,right,Całkowita
66M18,32,SQUARES,First_showed,1,20,15,0,4,1,5,1.1670300960540771,right,Duża
66M18,33,SQUARES,First_showed,1,20,15,1,5,0,-,0.6669349670410156,right,Mała
66M18,34,SQUARES,First_showed,1,20,15,1,5,0,-,0.4834010601043701,left,Całkowita
66M18,35,SQUARES,First_showed,1,20,15,1,5,1,6,1.0168919563293457,left,Całkowita
66M18,36,SQUARES,First_showed,1,20,15,0,4,1,7,1.266855001449585,left,Całkowita
66M18,37,SQUARES,First_showed,1,20,15,0,5,0,-,1.1833620071411133,right,Mała
66M18,38,SQUARES,First_showed,1,20,15,1,6,0,-,0.616894006729126,right,Duża
66M18,39,SQUARES,First_showed,1,20,15,1,6,0,-,0.7336220741271973,right,Całkowita
66M18,40,SQUARES,First_showed,1,20,15,1,6,1,8,0.3669600486755371,left,Całkowita
66M18,40,SQUARES,First_showed,0,480,15,True,3,-,-,0.7500529289245605,left,Mała
66M18,41,SQUARES,First_showed,0,480,15,True,3,-,-,2.0502848625183105,right,Mała
66M18,42,SQUARES,First_showed,0,480,15,True,3,-,-,1.9836010932922363,right,Duża
66M18,43,SQUARES,First_showed,0,480,15,True,3,-,-,0.8169159889221191,left,Duża
66M18,44,SQUARES,First_showed,0,480,15,False,3,-,-,1.2502541542053223,right,Żadna
66M18,45,SQUARES,First_showed,0,480,15,True,3,-,-,1.8169660568237305,right,Całkowita
66M18,46,SQUARES,First_showed,0,480,15,True,3,-,-,1.6836438179016113,right,Duża
66M18,47,SQUARES,First_showed,0,480,15,True,3,-,-,1.200042963027954,right,Duża
66M18,48,SQUARES,First_showed,0,480,15,False,3,-,-,1.6336297988891602,right,Żadna
66M18,49,SQUARES,First_showed,0,480,15,True,3,-,-,0.9502699375152588,right,Całkowita
66M18,50,SQUARES,First_showed,0,480,15,True,3,-,-,0.9336609840393066,left,Całkowita
66M18,51,SQUARES,First_showed,0,480,15,True,3,-,-,0.7167530059814453,right,Całkowita
66M18,52,SQUARES,First_showed,0,480,15,True,3,-,-,0.9167520999908447,right,Duża
66M18,53,SQUARES,First_showed,0,480,15,True,3,-,-,1.5669519901275635,right,Całkowita
66M18,54,SQUARES,First_showed,0,480,15,True,3,-,-,0.8835639953613281,left,Całkowita
66M18,55,SQUARES,First_showed,0,480,15,True,3,-,-,0.8169810771942139,left,Całkowita
66M18,56,SQUARES,First_showed,0,480,15,True,3,-,-,0.7002520561218262,right,Całkowita
66M18,57,SQUARES,First_showed,0,480,15,True,3,-,-,0.8169071674346924,left,Całkowita
66M18,58,SQUARES,First_showed,0,480,15,True,3,-,-,0.7668919563293457,right,Całkowita
66M18,59,SQUARES,First_showed,0,480,15,True,3,-,-,0.8169729709625244,left,Całkowita
66M18,60,SQUARES,First_showed,0,480,15,True,3,-,-,0.8669331073760986,left,Całkowita
66M18,61,SQUARES,First_showed,0,480,15,True,3,-,-,0.8502399921417236,right,Całkowita
66M18,62,SQUARES,First_showed,0,480,15,True,3,-,-,0.7500851154327393,left,Całkowita
66M18,63,SQUARES,First_showed,0,480,15,True,3,-,-,1.3002710342407227,left,Mała
66M18,64,SQUARES,First_showed,0,480,15,True,3,-,-,0.716681957244873,right,Całkowita
66M18,65,SQUARES,First_showed,0,480,15,True,3,-,-,1.033686876296997,right,Całkowita
66M18,66,SQUARES,First_showed,0,480,15,True,3,-,-,0.5502538681030273,right,Całkowita
66M18,67,SQUARES,First_showed,0,480,15,True,3,-,-,0.9668948650360107,left,Całkowita
66M18,68,SQUARES,First_showed,0,480,15,True,3,-,-,0.6169500350952148,right,Całkowita
66M18,69,SQUARES,First_showed,0,480,15,True,3,-,-,0.7833640575408936,left,Całkowita
66M18,70,SQUARES,First_showed,0,480,15,True,3,-,-,0.6835639476776123,right,Całkowita
66M18,71,SQUARES,First_showed,0,480,15,True,3,-,-,0.6168961524963379,left,Całkowita
66M18,72,SQUARES,First_showed,0,480,15,True,3,-,-,0.816925048828125,right,Całkowita
66M18,73,SQUARES,First_showed,0,480,15,True,3,-,-,1.100248098373413,left,Duża
66M18,74,SQUARES,First_showed,0,480,15,True,3,-,-,0.9836230278015137,left,Całkowita
66M18,75,SQUARES,First_showed,0,480,15,True,3,-,-,0.8167150020599365,left,Całkowita
66M18,76,SQUARES,First_showed,0,480,15,True,3,-,-,0.8335750102996826,left,Całkowita
66M18,77,SQUARES,First_showed,0,480,15,True,3,-,-,0.7667269706726074,left,Całkowita
66M18,78,SQUARES,First_showed,0,480,15,True,3,-,-,0.7835409641265869,right,Całkowita
66M18,79,SQUARES,First_showed,0,480,15,True,3,-,-,1.633389949798584,left,Całkowita
66M18,80,SQUARES,First_showed,0,480,15,True,3,-,-,2.3501830101013184,left,Duża
66M18,81,SQUARES,First_showed,0,480,15,True,3,-,-,0.6170370578765869,right,Całkowita
66M18,82,SQUARES,First_showed,0,480,15,False,3,-,-,0.5336558818817139,left,Całkowita
66M18,83,SQUARES,First_showed,0,480,15,True,3,-,-,0.9667470455169678,left,Całkowita
66M18,84,SQUARES,First_showed,0,480,15,True,3,-,-,0.766948938369751,left,Duża
66M18,85,SQUARES,First_showed,0,480,15,True,3,-,-,1.3167119026184082,left,Duża
66M18,86,SQUARES,First_showed,0,480,15,True,3,-,-,1.2836458683013916,left,Całkowita
66M18,87,SQUARES,First_showed,0,480,15,True,3,-,-,0.9333910942077637,left,Całkowita
66M18,88,SQUARES,First_showed,0,480,15,True,3,-,-,2.516702890396118,left,Żadna
66M18,89,SQUARES,First_showed,0,480,15,True,3,-,-,0.6669249534606934,right,Całkowita
66M18,90,SQUARES,First_showed,0,480,15,True,3,-,-,1.150033950805664,right,Całkowita
66M18,91,SQUARES,First_showed,0,480,15,True,3,-,-,0.9335479736328125,right,Całkowita
66M18,92,SQUARES,First_showed,0,480,15,True,3,-,-,0.7502069473266602,right,Całkowita
66M18,93,SQUARES,First_showed,0,480,15,True,3,-,-,1.0169289112091064,right,Całkowita
66M18,94,SQUARES,First_showed,0,480,15,True,3,-,-,0.8336071968078613,right,Całkowita
66M18,95,SQUARES,First_showed,0,480,15,True,3,-,-,0.750312089920044,right,Całkowita
66M18,96,SQUARES,First_showed,0,480,15,True,3,-,-,2.0500590801239014,right,Mała
66M18,97,SQUARES,First_showed,0,480,15,True,3,-,-,0.683568000793457,left,Całkowita
66M18,98,SQUARES,First_showed,0,480,15,True,3,-,-,1.5335822105407715,right,Duża
66M18,99,SQUARES,First_showed,0,480,15,True,3,-,-,1.0835700035095215,left,Całkowita
66M18,100,SQUARES,First_showed,0,480,15,True,3,-,-,1.0502259731292725,right,Całkowita
66M18,101,SQUARES,First_showed,0,480,15,True,3,-,-,0.6335558891296387,right,Całkowita
66M18,102,SQUARES,First_showed,0,480,15,True,3,-,-,2.233582019805908,right,Całkowita
66M18,103,SQUARES,First_showed,0,480,15,True,3,-,-,0.933506965637207,right,Całkowita
66M18,104,SQUARES,First_showed,0,480,15,True,3,-,-,1.500251054763794,left,Całkowita
66M18,105,SQUARES,First_showed,0,480,15,True,3,-,-,1.2669248580932617,left,Całkowita
66M18,106,SQUARES,First_showed,0,480,15,True,3,-,-,1.1836130619049072,right,Całkowita
66M18,107,SQUARES,First_showed,0,480,15,True,3,-,-,0.6835548877716064,left,Całkowita
66M18,108,SQUARES,First_showed,0,480,15,True,3,-,-,0.8169059753417969,left,Całkowita
66M18,109,SQUARES,First_showed,0,480,15,True,3,-,-,1.133584976196289,right,Duża
66M18,110,SQUARES,First_showed,0,480,15,True,3,-,-,1.200247049331665,right,Całkowita
66M18,111,SQUARES,First_showed,0,480,15,True,3,-,-,1.6168670654296875,right,Duża
66M18,112,SQUARES,First_showed,0,480,15,True,3,-,-,1.900273084640503,right,Całkowita
66M18,113,SQUARES,First_showed,0,480,15,True,3,-,-,0.5500719547271729,left,Całkowita
66M18,114,SQUARES,First_showed,0,480,15,False,3,-,-,1.8836259841918945,right,Duża
66M18,115,SQUARES,First_showed,0,480,15,True,3,-,-,0.6669039726257324,right,Całkowita
66M18,116,SQUARES,First_showed,0,480,15,True,3,-,-,1.333543062210083,right,Całkowita
66M18,117,SQUARES,First_showed,0,480,15,True,3,-,-,1.2502598762512207,right,Całkowita
66M18,118,SQUARES,First_showed,0,480,15,True,3,-,-,2.766897201538086,left,Mała
66M18,119,SQUARES,First_showed,0,480,15,True,3,-,-,0.8002490997314453,right,Całkowita
66M18,120,SQUARES,First_showed,0,480,15,True,3,-,-,0.5835521221160889,right,Całkowita
66M18,121,SQUARES,First_showed,0,480,15,True,3,-,-,0.516913890838623,right,Całkowita
66M18,122,SQUARES,First_showed,0,480,15,True,3,-,-,0.6003000736236572,left,Całkowita
66M18,123,SQUARES,First_showed,0,480,15,True,3,-,-,0.4836430549621582,left,Całkowita
66M18,124,SQUARES,First_showed,0,480,15,True,3,-,-,0.5169651508331299,right,Całkowita
66M18,125,SQUARES,First_showed,0,480,15,True,3,-,-,0.4835808277130127,left,Całkowita
66M18,126,SQUARES,First_showed,0,480,15,True,3,-,-,0.7169249057769775,left,Całkowita
66M18,127,SQUARES,First_showed,0,480,15,True,3,-,-,2.283698081970215,right,Duża
66M18,128,SQUARES,First_showed,0,480,15,True,3,-,-,0.7003200054168701,right,Całkowita
66M18,129,SQUARES,First_showed,0,480,15,True,3,-,-,1.6335859298706055,left,Duża
66M18,0,CIRCLES,First_hidden,1,20,15,1,3,0,0,1.850234031677246,left,Mała
66M18,1,CIRCLES,First_hidden,1,20,15,1,3,0,-,1.4000530242919922,right,Duża
66M18,2,CIRCLES,First_hidden,1,20,15,1,3,0,-,1.0002501010894775,left,Całkowita
66M18,3,CIRCLES,First_hidden,1,20,15,1,2,0,-,0.7835879325866699,right,Duża
66M18,4,CIRCLES,First_hidden,1,20,15,1,2,0,-,0.6502261161804199,left,Całkowita
66M18,5,CIRCLES,First_hidden,1,20,15,1,2,0,-,0.6667768955230713,left,Całkowita
66M18,6,CIRCLES,First_hidden,1,20,15,0,1,1,1,1.7169649600982666,left,Żadna
66M18,7,CIRCLES,First_hidden,1,20,15,1,2,0,-,0.750065803527832,right,Całkowita
66M18,8,CIRCLES,First_hidden,1,20,15,1,2,0,-,0.6835629940032959,right,Całkowita
66M18,9,CIRCLES,First_hidden,1,20,15,1,2,1,2,0.6502940654754639,left,Całkowita
66M18,10,CIRCLES,First_hidden,1,20,15,0,1,1,3,1.5169920921325684,left,Żadna
66M18,11,CIRCLES,First_hidden,1,20,15,1,2,0,-,0.8002550601959229,right,Całkowita
66M18,12,CIRCLES,First_hidden,1,20,15,1,2,0,-,0.7336061000823975,right,Całkowita
66M18,13,CIRCLES,First_hidden,1,20,15,1,2,1,4,0.7669339179992676,right,Całkowita
66M18,14,CIRCLES,First_hidden,1,20,15,1,1,0,-,0.8835799694061279,left,Duża
66M18,15,CIRCLES,First_hidden,1,20,15,1,1,0,-,0.6335160732269287,right,Całkowita
66M18,16,CIRCLES,First_hidden,1,20,15,0,1,1,5,1.9169180393218994,right,Mała
66M18,17,CIRCLES,First_hidden,1,20,15,1,2,0,-,0.5670249462127686,right,Całkowita
66M18,18,CIRCLES,First_hidden,1,20,15,1,2,0,-,0.9836099147796631,right,Duża
66M18,19,CIRCLES,First_hidden,1,20,15,1,2,1,6,0.8502848148345947,right,Całkowita
66M18,20,CIRCLES,First_hidden,1,20,15,1,1,0,-,1.5669279098510742,right,Mała
66M18,21,CIRCLES,First_hidden,1,20,15,1,1,0,-,0.8169209957122803,right,Całkowita
66M18,22,CIRCLES,First_hidden,1,20,15,1,1,0,-,0.6670031547546387,left,Całkowita
66M18,23,CIRCLES,First_hidden,1,20,15,1,0,0,-,0.6168968677520752,right,Całkowita
66M18,24,CIRCLES,First_hidden,1,20,15,0,0,1,7,1.5336380004882812,left,Mała
66M18,25,CIRCLES,First_hidden,1,20,15,1,1,0,-,0.5669300556182861,left,Całkowita
66M18,26,CIRCLES,First_hidden,1,20,15,0,1,0,-,1.6003000736236572,left,Mała
66M18,27,CIRCLES,First_hidden,1,20,15,1,2,0,-,0.5834388732910156,left,Całkowita
66M18,28,CIRCLES,First_hidden,1,20,15,1,2,0,-,0.5502438545227051,left,Całkowita
66M18,29,CIRCLES,First_hidden,1,20,15,1,2,1,8,0.5168180465698242,left,Całkowita
66M18,29,CIRCLES,First_hidden,0,480,15,True,1,-,-,0.6500968933105469,left,Duża
66M18,30,CIRCLES,First_hidden,0,480,15,False,1,-,-,1.6002099514007568,right,Mała
66M18,31,CIRCLES,First_hidden,0,480,15,True,1,-,-,1.3170199394226074,left,Duża
66M18,32,CIRCLES,First_hidden,0,480,15,False,1,-,-,1.7167139053344727,right,Mała
66M18,33,CIRCLES,First_hidden,0,480,15,True,1,-,-,1.0169100761413574,left,Całkowita
66M18,34,CIRCLES,First_hidden,0,480,15,False,1,-,-,2.266904830932617,left,Mała
66M18,35,CIRCLES,First_hidden,0,480,15,True,1,-,-,1.5335218906402588,left,Całkowita
66M18,36,CIRCLES,First_hidden,0,480,15,True,1,-,-,2.3502309322357178,right,Żadna
66M18,37,CIRCLES,First_hidden,0,480,15,True,1,-,-,1.5168681144714355,right,Duża
66M18,38,CIRCLES,First_hidden,0,480,15,False,1,-,-,2.3836429119110107,left,Mała
66M18,39,CIRCLES,First_hidden,0,480,15,True,1,-,-,1.4336140155792236,right,Duża
66M18,40,CIRCLES,First_hidden,0,480,15,True,1,-,-,1.0669398307800293,left,Całkowita
66M18,41,CIRCLES,First_hidden,0,480,15,True,1,-,-,0.7000839710235596,left,Całkowita
66M18,42,CIRCLES,First_hidden,0,480,15,True,1,-,-,0.6503119468688965,left,Całkowita
66M18,43,CIRCLES,First_hidden,0,480,15,False,1,-,-,0.6502981185913086,right,Całkowita
66M18,44,CIRCLES,First_hidden,0,480,15,True,1,-,-,-1.0,left,Mała
66M18,45,CIRCLES,First_hidden,0,480,15,False,1,-,-,1.283592939376831,right,Duża
66M18,46,CIRCLES,First_hidden,0,480,15,True,1,-,-,0.7834219932556152,right,Całkowita
66M18,47,CIRCLES,First_hidden,0,480,15,True,1,-,-,1.3003199100494385,left,Całkowita
66M18,48,CIRCLES,First_hidden,0,480,15,True,1,-,-,0.533376932144165,left,Całkowita
66M18,49,CIRCLES,First_hidden,0,480,15,True,1,-,-,-1.0,left,Żadna
66M18,50,CIRCLES,First_hidden,0,480,15,True,1,-,-,0.516909122467041,left,Całkowita
66M18,51,CIRCLES,First_hidden,0,480,15,True,1,-,-,1.2667319774627686,left,Duża
66M18,52,CIRCLES,First_hidden,0,480,15,True,1,-,-,1.7502460479736328,left,Mała
66M18,53,CIRCLES,First_hidden,0,480,15,True,1,-,-,0.8168950080871582,left,Duża
66M18,54,CIRCLES,First_hidden,0,480,15,True,1,-,-,1.2836089134216309,left,Całkowita
66M18,55,CIRCLES,First_hidden,0,480,15,True,1,-,-,0.683459997177124,right,Całkowita
66M18,56,CIRCLES,First_hidden,0,480,15,True,1,-,-,1.450139045715332,left,Mała
66M18,57,CIRCLES,First_hidden,0,480,15,True,1,-,-,0.8002679347991943,right,Całkowita
66M18,58,CIRCLES,First_hidden,0,480,15,True,1,-,-,1.866745948791504,left,Mała
66M18,59,CIRCLES,First_hidden,0,480,15,True,1,-,-,0.7336411476135254,right,Całkowita
66M18,60,CIRCLES,First_hidden,0,480,15,True,1,-,-,0.9002790451049805,left,Całkowita
66M18,61,CIRCLES,First_hidden,0,480,15,True,1,-,-,0.616908073425293,right,Mała
66M18,62,CIRCLES,First_hidden,0,480,15,True,1,-,-,0.5503180027008057,left,Całkowita
66M18,63,CIRCLES,First_hidden,0,480,15,True,1,-,-,0.6169788837432861,left,Całkowita
66M18,64,CIRCLES,First_hidden,0,480,15,False,1,-,-,1.8167049884796143,left,Duża
66M18,65,CIRCLES,First_hidden,0,480,15,True,1,-,-,0.8336191177368164,left,Całkowita
66M18,66,CIRCLES,First_hidden,0,480,15,True,1,-,-,2.983330011367798,left,Mała
66M18,67,CIRCLES,First_hidden,0,480,15,True,1,-,-,0.6003129482269287,right,Całkowita
66M18,68,CIRCLES,First_hidden,0,480,15,True,1,-,-,2.1003029346466064,left,Mała
66M18,69,CIRCLES,First_hidden,0,480,15,True,1,-,-,1.9502828121185303,left,Duża
66M18,70,CIRCLES,First_hidden,0,480,15,True,1,-,-,1.3168630599975586,right,Żadna
66M18,71,CIRCLES,First_hidden,0,480,15,True,1,-,-,1.6669211387634277,right,Duża
66M18,72,CIRCLES,First_hidden,0,480,15,True,1,-,-,0.7669298648834229,left,Całkowita
66M18,73,CIRCLES,First_hidden,0,480,15,True,1,-,-,2.11690092086792,right,Mała
66M18,74,CIRCLES,First_hidden,0,480,15,True,1,-,-,1.1003179550170898,left,Duża
66M18,75,CIRCLES,First_hidden,0,480,15,True,1,-,-,2.166896104812622,left,Żadna
66M18,76,CIRCLES,First_hidden,0,480,15,True,1,-,-,1.0001990795135498,left,Duża
66M18,77,CIRCLES,First_hidden,0,480,15,True,1,-,-,0.9168989658355713,right,Całkowita
66M18,78,CIRCLES,First_hidden,0,480,15,True,1,-,-,1.5835638046264648,right,Żadna
66M18,79,CIRCLES,First_hidden,0,480,15,True,1,-,-,1.516876220703125,left,Żadna
66M18,80,CIRCLES,First_hidden,0,480,15,True,1,-,-,1.266726016998291,right,Całkowita
66M18,81,CIRCLES,First_hidden,0,480,15,True,1,-,-,1.5167100429534912,right,Mała
66M18,82,CIRCLES,First_hidden,0,480,15,True,1,-,-,1.5835070610046387,left,Mała
66M18,83,CIRCLES,First_hidden,0,480,15,True,1,-,-,1.9670779705047607,left,Mała
66M18,84,CIRCLES,First_hidden,0,480,15,True,1,-,-,0.9335691928863525,right,Całkowita
66M18,85,CIRCLES,First_hidden,0,480,15,False,1,-,-,2.5167131423950195,left,Mała
66M18,86,CIRCLES,First_hidden,0,480,15,True,1,-,-,1.8335888385772705,left,Żadna
66M18,87,CIRCLES,First_hidden,0,480,15,True,1,-,-,0.5502350330352783,right,Mała
66M18,88,CIRCLES,First_hidden,0,480,15,True,1,-,-,1.4503180980682373,left,Mała
66M18,89,CIRCLES,First_hidden,0,480,15,True,1,-,-,1.4835519790649414,right,Całkowita
66M18,90,CIRCLES,First_hidden,0,480,15,True,1,-,-,1.383594036102295,right,Całkowita
66M18,91,CIRCLES,First_hidden,0,480,15,True,1,-,-,1.5502519607543945,right,Żadna
66M18,92,CIRCLES,First_hidden,0,480,15,True,1,-,-,0.6668591499328613,left,Całkowita
66M18,93,CIRCLES,First_hidden,0,480,15,True,1,-,-,1.1836330890655518,left,Całkowita
66M18,94,CIRCLES,First_hidden,0,480,15,True,1,-,-,1.6502251625061035,right,Mała
66M18,95,CIRCLES,First_hidden,0,480,15,True,1,-,-,0.78336501121521,left,Całkowita
66M18,96,CIRCLES,First_hidden,0,480,15,False,1,-,-,2.083631992340088,left,Żadna
66M18,97,CIRCLES,First_hidden,0,480,15,True,1,-,-,0.6336970329284668,right,Całkowita
66M18,98,CIRCLES,First_hidden,0,480,15,True,1,-,-,0.6500470638275146,left,Całkowita
66M18,99,CIRCLES,First_hidden,0,480,15,True,1,-,-,0.8502581119537354,left,Całkowita
66M18,100,CIRCLES,First_hidden,0,480,15,True,1,-,-,1.7002511024475098,right,Żadna
66M18,101,CIRCLES,First_hidden,0,480,15,True,1,-,-,2.1834239959716797,right,Mała
66M18,102,CIRCLES,First_hidden,0,480,15,True,1,-,-,1.100296974182129,left,Całkowita
66M18,103,CIRCLES,First_hidden,0,480,15,True,1,-,-,0.8668999671936035,left,Duża
66M18,104,CIRCLES,First_hidden,0,480,15,True,1,-,-,0.8833699226379395,right,Całkowita
66M18,105,CIRCLES,First_hidden,0,480,15,True,1,-,-,1.7502861022949219,left,Żadna
66M18,106,CIRCLES,First_hidden,0,480,15,False,1,-,-,1.833367109298706,left,Mała
66M18,107,CIRCLES,First_hidden,0,480,15,False,1,-,-,1.783376932144165,left,Mała
66M18,108,CIRCLES,First_hidden,0,480,15,True,1,-,-,1.3836140632629395,right,Całkowita
66M18,109,CIRCLES,First_hidden,0,480,15,True,1,-,-,0.9335789680480957,left,Duża
66M18,110,CIRCLES,First_hidden,0,480,15,False,1,-,-,1.3170061111450195,right,Duża
66M18,111,CIRCLES,First_hidden,0,480,15,True,1,-,-,0.6336240768432617,right,Mała
66M18,112,CIRCLES,First_hidden,0,480,15,False,1,-,-,1.3335130214691162,left,Żadna
66M18,113,CIRCLES,First_hidden,0,480,15,True,1,-,-,1.2833771705627441,right,Całkowita
66M18,114,CIRCLES,First_hidden,0,480,15,False,1,-,-,1.4503159523010254,left,Żadna
66M18,115,CIRCLES,First_hidden,0,480,15,True,1,-,-,0.7502908706665039,right,Całkowita
66M18,116,CIRCLES,First_hidden,0,480,15,True,1,-,-,1.6833479404449463,left,Mała
66M18,117,CIRCLES,First_hidden,0,480,15,True,1,-,-,1.133641004562378,left,Mała
66M18,118,CIRCLES,First_hidden,0,480,15,True,1,-,-,1.6335549354553223,left,Żadna
