PART_ID,Trial,Stimuli,Version,Training,FIXTIME,TIME,Correct,SOA,Reversal,Reversal_count,Latency,stim_name,Rating
M20,1,SQUARES,First_showed,training,45,15,True,8,-,-,0.200273200054653,right,-
M20,2,SQUARES,First_showed,training,45,15,False,8,-,-,0.017276400001719594,left,-
M20,3,SQUARES,First_showed,training,45,15,True,8,-,-,0.10003849992062896,right,-
M20,4,SQUARES,First_showed,training,45,15,False,3,-,-,0.06685209996066988,left,-
M20,5,SQUARES,First_showed,training,45,15,True,3,-,-,0.10031500004697591,right,-
M20,6,SQUARES,First_showed,training,45,15,True,3,-,-,0.2002519000088796,right,-
M20,1,SQUARES,First_showed,exp,45,15,True,3,0,0,0.5338126999558881,right,-
M20,2,SQUARES,First_showed,exp,45,15,True,3,0,-,0.7172399000264704,right,-
M20,3,SQUARES,First_showed,exp,45,15,True,3,0,-,0.5175895999418572,right,-
M20,4,SQUARES,First_showed,exp,45,15,False,2,1,1,0.7666632999898866,right,-
M20,5,SQUARES,First_showed,exp,45,15,False,3,0,-,0.8336282999953255,right,-
M20,6,SQUARES,First_showed,exp,45,15,False,4,0,-,0.3501645000651479,left,-
M20,7,SQUARES,First_showed,exp,45,15,False,5,0,-,0.633454900002107,left,-
M20,8,SQUARES,First_showed,exp,45,15,False,6,0,-,0.28366299998015165,right,-
M20,9,SQUARES,First_showed,exp,45,15,False,7,0,-,0.3338391000870615,right,-
M20,10,SQUARES,First_showed,exp,45,15,False,8,0,-,0.2670999000547454,left,-
M20,11,SQUARES,First_showed,exp,45,15,False,9,0,-,0.5672689999919385,left,-
M20,12,SQUARES,First_showed,exp,45,15,False,10,0,-,0.2836864000419155,left,-
M20,13,SQUARES,First_showed,exp,45,15,False,11,0,-,0.1669862000271678,right,-
M20,14,SQUARES,First_showed,exp,45,15,False,12,0,-,0.20075570000335574,left,-
M20,15,SQUARES,First_showed,exp,45,15,False,13,0,-,0.1999933000188321,left,-
M20,16,SQUARES,First_showed,exp,45,15,False,14,0,-,0.20007799996528774,left,-
M20,17,SQUARES,First_showed,exp,45,15,False,15,0,-,0.26715069997590035,left,-
M20,18,SQUARES,First_showed,exp,45,15,False,16,0,-,0.16716150008141994,right,-
M20,19,SQUARES,First_showed,exp,45,15,False,17,0,-,0.250611099996604,right,-
M20,20,SQUARES,First_showed,exp,45,15,False,18,0,-,0.15036710002459586,left,-
M20,21,SQUARES,First_showed,exp,45,15,True,19,0,-,0.4842966999858618,left,-
M20,22,SQUARES,First_showed,exp,45,15,True,19,0,-,0.30061799997929484,right,-
M20,23,SQUARES,First_showed,exp,45,15,True,19,1,2,0.11638000002130866,right,-
M20,1,CIRCLES,First_hidden,training,45,15,True,8,-,-,0.9838501999620348,right,-
M20,2,CIRCLES,First_hidden,training,45,15,True,8,-,-,0.3836007999489084,right,-
M20,3,CIRCLES,First_hidden,training,45,15,True,8,-,-,0.3169628999894485,right,-
M20,4,CIRCLES,First_hidden,training,45,15,True,3,-,-,0.2509021000005305,left,-
M20,5,CIRCLES,First_hidden,training,45,15,True,3,-,-,0.5338546000421047,right,-
M20,6,CIRCLES,First_hidden,training,45,15,True,3,-,-,0.3669480999233201,right,-
M20,1,CIRCLES,First_hidden,exp,45,15,False,3,0,0,0.6337752999970689,left,-
M20,2,CIRCLES,First_hidden,exp,45,15,False,4,0,-,0.6335656000301242,left,-
M20,3,CIRCLES,First_hidden,exp,45,15,False,5,0,-,0.5840370999649167,right,-
M20,4,CIRCLES,First_hidden,exp,45,15,False,6,0,-,0.6170524000190198,left,-
M20,5,CIRCLES,First_hidden,exp,45,15,False,7,0,-,0.48394740000367165,right,-
M20,6,CIRCLES,First_hidden,exp,45,15,False,8,0,-,0.5340294999768957,right,-
M20,7,CIRCLES,First_hidden,exp,45,15,False,9,0,-,0.40059660002589226,right,-
M20,8,CIRCLES,First_hidden,exp,45,15,False,10,0,-,0.45052250009030104,left,-
M20,9,CIRCLES,First_hidden,exp,45,15,False,11,0,-,0.3840428999392316,left,-
M20,10,CIRCLES,First_hidden,exp,45,15,False,12,0,-,0.31741690007038414,left,-
M20,11,CIRCLES,First_hidden,exp,45,15,False,13,0,-,0.36722460004966706,right,-
M20,12,CIRCLES,First_hidden,exp,45,15,False,14,0,-,0.317037699976936,left,-
M20,13,CIRCLES,First_hidden,exp,45,15,False,15,0,-,0.28400899993721396,left,-
M20,14,CIRCLES,First_hidden,exp,45,15,False,16,0,-,0.08400379994418472,left,-
M20,15,CIRCLES,First_hidden,exp,45,15,False,17,0,-,0.134031500085257,right,-
M20,16,CIRCLES,First_hidden,exp,45,15,False,18,0,-,0.13485950010363013,right,-
M20,17,CIRCLES,First_hidden,exp,45,15,False,19,0,-,0.267080600024201,left,-
M20,18,CIRCLES,First_hidden,exp,45,15,False,20,0,-,0.40032059990335256,right,-
M20,19,CIRCLES,First_hidden,exp,45,15,False,21,0,-,0.4671241999603808,left,-
M20,20,CIRCLES,First_hidden,exp,45,15,True,22,0,-,0.31683559995144606,left,-
M20,21,CIRCLES,First_hidden,exp,45,15,True,22,0,-,0.09997570002451539,right,-
M20,22,CIRCLES,First_hidden,exp,45,15,True,22,1,1,0.2167442999780178,right,-
M20,23,CIRCLES,First_hidden,exp,45,15,True,21,0,-,0.25039509998168796,left,-
M20,24,CIRCLES,First_hidden,exp,45,15,True,21,0,-,0.5503058000467718,right,-
M20,25,CIRCLES,First_hidden,exp,45,15,True,21,0,-,0.2510942999506369,right,-
M20,26,CIRCLES,First_hidden,exp,45,15,True,20,0,-,0.20054660004097968,right,-
M20,27,CIRCLES,First_hidden,exp,45,15,True,20,0,-,0.20039200002793223,right,-
M20,28,CIRCLES,First_hidden,exp,45,15,False,20,1,2,0.2334819999523461,left,-
